color,congruent,word,corrans,inverse1.thisRepN,inverse1.thisTrialN,inverse1.thisN,inverse1.thisIndex,conven1.thisRepN,conven1.thisTrialN,conven1.thisN,conven1.thisIndex,inverse2.thisRepN,inverse2.thisTrialN,inverse2.thisN,inverse2.thisIndex,key_resp_3.keys,key_resp_3.rt,key_resp_2.keys,key_resp_2.rt,key_resp_4.keys,key_resp_4.rt,key_resp_8.keys,key_resp_7.keys,key_resp_7.corr,key_resp_7.rt,key_resp_9.keys,key_resp_9.rt,date,frameRate,expName,session,participant,
,,,,,,,,,,,,,,,,space,0.133471165354,,,,,,,,,,,2016_Sep_06_0925,60.0134507409,stroop short,002,ChiK13,
,,,,,,,,,,,,,,,,,,space,2.98278048789,,,,,,,,,2016_Sep_06_0925,60.0134507409,stroop short,002,ChiK13,
,,,,,,,,,,,,,,,,,,,,space,2.3162251683,,,,,,,2016_Sep_06_0925,60.0134507409,stroop short,002,ChiK13,
,,,,,,,,,,,,,,,,,,,,,,None,,,,,,2016_Sep_06_0925,60.0134507409,stroop short,002,ChiK13,
RED,0,YELLOW,z,0,0,0,0,,,,,,,,,,,,,,,,z,1,0.916607213503,,,2016_Sep_06_0925,60.0134507409,stroop short,002,ChiK13,
RED,1,RED,z,0,1,1,1,,,,,,,,,,,,,,,,z,1,0.566693537841,,,2016_Sep_06_0925,60.0134507409,stroop short,002,ChiK13,
BLUE,0,GREEN,z,0,2,2,2,,,,,,,,,,,,,,,,m,0,1.01653222803,,,2016_Sep_06_0925,60.0134507409,stroop short,002,ChiK13,
YELLOW,0,RED,z,0,3,3,3,,,,,,,,,,,,,,,,x,0,0.949855408803,,,2016_Sep_06_0925,60.0134507409,stroop short,002,ChiK13,
GREEN,0,RED,n,0,4,4,4,,,,,,,,,,,,,,,,n,1,0.89997070104,,,2016_Sep_06_0925,60.0134507409,stroop short,002,ChiK13,
RED,0,BLUE,z,0,5,5,5,,,,,,,,,,,,,,,,z,1,0.850019780936,,,2016_Sep_06_0925,60.0134507409,stroop short,002,ChiK13,
GREEN,0,YELLOW,n,0,6,6,6,,,,,,,,,,,,,,,,n,1,0.849922448797,,,2016_Sep_06_0925,60.0134507409,stroop short,002,ChiK13,
YELLOW,0,BLUE,x,0,7,7,7,,,,,,,,,,,,,,,,x,1,0.68325307846,,,2016_Sep_06_0925,60.0134507409,stroop short,002,ChiK13,
GREEN,0,BLUE,n,0,8,8,8,,,,,,,,,,,,,,,,n,1,0.71663965755,,,2016_Sep_06_0925,60.0134507409,stroop short,002,ChiK13,
RED,0,GREEN,z,0,9,9,9,,,,,,,,,,,,,,,,z,1,0.816652072363,,,2016_Sep_06_0925,60.0134507409,stroop short,002,ChiK13,
YELLOW,0,BLUE,x,0,10,10,10,,,,,,,,,,,,,,,,x,1,0.649875769098,,,2016_Sep_06_0925,60.0134507409,stroop short,002,ChiK13,
RED,0,RED,z,0,11,11,11,,,,,,,,,,,,,,,,z,1,1.01644747623,,,2016_Sep_06_0925,60.0134507409,stroop short,002,ChiK13,
BLUE,1,BLUE,m,0,12,12,12,,,,,,,,,,,,,,,,m,1,0.883207060884,,,2016_Sep_06_0925,60.0134507409,stroop short,002,ChiK13,
GREEN,0,RED,n,0,13,13,13,,,,,,,,,,,,,,,,n,1,0.716637340118,,,2016_Sep_06_0925,60.0134507409,stroop short,002,ChiK13,
BLUE,0,RED,m,0,14,14,14,,,,,,,,,,,,,,,,m,1,0.683229573079,,,2016_Sep_06_0925,60.0134507409,stroop short,002,ChiK13,
BLUE,0,GREEN,m,0,15,15,15,,,,,,,,,,,,,,,,m,1,0.66663278802,,,2016_Sep_06_0925,60.0134507409,stroop short,002,ChiK13,
YELLOW,0,GREEN,x,0,16,16,16,,,,,,,,,,,,,,,,x,1,0.533258292682,,,2016_Sep_06_0925,60.0134507409,stroop short,002,ChiK13,
RED,0,YELLOW,z,0,17,17,17,,,,,,,,,,,,,,,,z,1,0.783323098009,,,2016_Sep_06_0925,60.0134507409,stroop short,002,ChiK13,
RED,0,BLUE,z,0,18,18,18,,,,,,,,,,,,,,,,z,1,0.999867575321,,,2016_Sep_06_0925,60.0134507409,stroop short,002,ChiK13,
GREEN,0,RED,m,0,19,19,19,,,,,,,,,,,,,,,,n,0,0.766560119977,,,2016_Sep_06_0925,60.0134507409,stroop short,002,ChiK13,
BLUE,0,GREEN,m,0,20,20,20,,,,,,,,,,,,,,,,m,1,1.18313704133,,,2016_Sep_06_0925,60.0134507409,stroop short,002,ChiK13,
RED,0,YELLOW,z,0,21,21,21,,,,,,,,,,,,,,,,z,1,0.766577004124,,,2016_Sep_06_0925,60.0134507409,stroop short,002,ChiK13,
GREEN,0,BLUE,n,0,22,22,22,,,,,,,,,,,,,,,,n,1,1.016494487,,,2016_Sep_06_0925,60.0134507409,stroop short,002,ChiK13,
YELLOW,1,YELLOW,x,0,23,23,23,,,,,,,,,,,,,,,,x,1,0.866558299137,,,2016_Sep_06_0925,60.0134507409,stroop short,002,ChiK13,
RED,0,BLUE,z,0,24,24,24,,,,,,,,,,,,,,,,z,1,0.966608123923,,,2016_Sep_06_0925,60.0134507409,stroop short,002,ChiK13,
GREEN,0,RED,n,0,25,25,25,,,,,,,,,,,,,,,,n,1,1.03316973368,,,2016_Sep_06_0925,60.0134507409,stroop short,002,ChiK13,
BLUE,0,GREEN,m,0,26,26,26,,,,,,,,,,,,,,,,m,1,0.716592315727,,,2016_Sep_06_0925,60.0134507409,stroop short,002,ChiK13,
YELLOW,0,GREEN,x,0,27,27,27,,,,,,,,,,,,,,,,x,1,0.999720583927,,,2016_Sep_06_0925,60.0134507409,stroop short,002,ChiK13,
GREEN,0,YELLOW,n,0,28,28,28,,,,,,,,,,,,,,,,n,1,1.16647603031,,,2016_Sep_06_0925,60.0134507409,stroop short,002,ChiK13,
RED,0,YELLOW,z,0,29,29,29,,,,,,,,,,,,,,,,z,1,0.650005876345,,,2016_Sep_06_0925,60.0134507409,stroop short,002,ChiK13,
YELLOW,0,GREEN,x,0,30,30,30,,,,,,,,,,,,,,,,x,1,0.766608123923,,,2016_Sep_06_0925,60.0134507409,stroop short,002,ChiK13,
BLUE,0,YELLOW,m,0,31,31,31,,,,,,,,,,,,,,,,m,1,1.49968433267,,,2016_Sep_06_0925,60.0134507409,stroop short,002,ChiK13,
BLUE,0,RED,m,0,32,32,32,,,,,,,,,,,,,,,,m,1,0.633242567251,,,2016_Sep_06_0925,60.0134507409,stroop short,002,ChiK13,
YELLOW,0,GREEN,x,0,33,33,33,,,,,,,,,,,,,,,,x,1,0.949869644456,,,2016_Sep_06_0925,60.0134507409,stroop short,002,ChiK13,
GREEN,1,GREEN,n,0,34,34,34,,,,,,,,,,,,,,,,n,1,1.06653678013,,,2016_Sep_06_0925,60.0134507409,stroop short,002,ChiK13,
GREEN,0,RED,n,0,35,35,35,,,,,,,,,,,,,,,,n,1,0.683271948977,,,2016_Sep_06_0925,60.0134507409,stroop short,002,ChiK13,
BLUE,0,GREEN,m,0,36,36,36,,,,,,,,,,,,,,,,m,1,0.88319646691,,,2016_Sep_06_0925,60.0134507409,stroop short,002,ChiK13,
BLUE,0,YELLOW,m,0,37,37,37,,,,,,,,,,,,,,,,m,1,0.600051645625,,,2016_Sep_06_0925,60.0134507409,stroop short,002,ChiK13,
YELLOW,0,GREEN,x,0,38,38,38,,,,,,,,,,,,,,,,x,1,0.916639988611,,,2016_Sep_06_0925,60.0134507409,stroop short,002,ChiK13,
RED,0,BLUE,z,0,39,39,39,,,,,,,,,,,,,,,,z,1,0.79997848099,,,2016_Sep_06_0925,60.0134507409,stroop short,002,ChiK13,
,,,,,,,,,,,,,,,,,,,,,,None,,,,,,2016_Sep_06_0925,60.0134507409,stroop short,002,ChiK13,
RED,1,RED,z,,,,,0,0,0,0,,,,,,,,,,,,z,1,1.04988338352,,,2016_Sep_06_0925,60.0134507409,stroop short,002,ChiK13,
GREEN,1,GREEN,n,,,,,0,1,1,9,,,,,,,,,,,,n,1,0.750134493815,,,2016_Sep_06_0925,60.0134507409,stroop short,002,ChiK13,
GREEN,1,GREEN,n,,,,,0,2,2,4,,,,,,,,,,,,n,1,0.600007283357,,,2016_Sep_06_0925,60.0134507409,stroop short,002,ChiK13,
YELLOW,1,YELLOW,x,,,,,0,3,3,27,,,,,,,,,,,,x,1,0.633261106706,,,2016_Sep_06_0925,60.0134507409,stroop short,002,ChiK13,
BLUE,1,BLUE,m,,,,,0,4,4,32,,,,,,,,,,,,m,1,0.583404870249,,,2016_Sep_06_0925,60.0134507409,stroop short,002,ChiK13,
GREEN,1,GREEN,n,,,,,0,5,5,22,,,,,,,,,,,,n,1,0.766587267036,,,2016_Sep_06_0925,60.0134507409,stroop short,002,ChiK13,
BLUE,1,BLUE,m,,,,,0,6,6,37,,,,,,,,,,,,m,1,0.63337300556,,,2016_Sep_06_0925,60.0134507409,stroop short,002,ChiK13,
GREEN,1,GREEN,n,,,,,0,7,7,13,,,,,,,,,,,,m,0,0.816657700412,,,2016_Sep_06_0925,60.0134507409,stroop short,002,ChiK13,
YELLOW,1,YELLOW,x,,,,,0,8,8,30,,,,,,,,,,,,x,1,1.1667276372,,,2016_Sep_06_0925,60.0134507409,stroop short,002,ChiK13,
YELLOW,1,YELLOW,x,,,,,0,9,9,33,,,,,,,,,,,,x,1,0.566674998386,,,2016_Sep_06_0925,60.0134507409,stroop short,002,ChiK13,
YELLOW,1,YELLOW,x,,,,,0,10,10,7,,,,,,,,,,,,x,1,0.716655879573,,,2016_Sep_06_0925,60.0134507409,stroop short,002,ChiK13,
GREEN,1,GREEN,n,,,,,0,11,11,28,,,,,,,,,,,,n,1,0.966506819043,,,2016_Sep_06_0925,60.0134507409,stroop short,002,ChiK13,
BLUE,1,BLUE,m,,,,,0,12,12,19,,,,,,,,,,,,m,1,0.899929649389,,,2016_Sep_06_0925,60.0134507409,stroop short,002,ChiK13,
RED,1,RED,z,,,,,0,13,13,8,,,,,,,,,,,,z,1,0.766592564023,,,2016_Sep_06_0925,60.0134507409,stroop short,002,ChiK13,
GREEN,1,GREEN,n,,,,,0,14,14,25,,,,,,,,,,,,n,1,0.916552588323,,,2016_Sep_06_0925,60.0134507409,stroop short,002,ChiK13,
BLUE,1,BLUE,m,,,,,0,15,15,15,,,,,,,,,,,,m,1,0.783285025914,,,2016_Sep_06_0925,60.0134507409,stroop short,002,ChiK13,
RED,0,GREEN,z,,,,,0,16,16,1,,,,,,,,,,,,z,1,1.09981775054,,,2016_Sep_06_0925,60.0134507409,stroop short,002,ChiK13,
RED,1,RED,z,,,,,0,17,17,17,,,,,,,,,,,,z,1,0.733304310258,,,2016_Sep_06_0925,60.0134507409,stroop short,002,ChiK13,
BLUE,1,BLUE,m,,,,,0,18,18,36,,,,,,,,,,,,m,1,0.683224938216,,,2016_Sep_06_0925,60.0134507409,stroop short,002,ChiK13,
RED,1,RED,z,,,,,0,19,19,24,,,,,,,,,,,,z,1,0.733358273314,,,2016_Sep_06_0925,60.0134507409,stroop short,002,ChiK13,
YELLOW,1,YELLOW,z,,,,,0,20,20,3,,,,,,,,,,,,x,0,0.649951913288,,,2016_Sep_06_0925,60.0134507409,stroop short,002,ChiK13,
GREEN,1,GREEN,n,,,,,0,21,21,39,,,,,,,,,,,,n,1,0.899952823708,,,2016_Sep_06_0925,60.0134507409,stroop short,002,ChiK13,
BLUE,1,BLUE,m,,,,,0,22,22,26,,,,,,,,,,,,m,1,0.683208054069,,,2016_Sep_06_0925,60.0134507409,stroop short,002,ChiK13,
BLUE,1,BLUE,m,,,,,0,23,23,31,,,,,,,,,,,,m,1,0.683367956869,,,2016_Sep_06_0925,60.0134507409,stroop short,002,ChiK13,
RED,1,RED,z,,,,,0,24,24,21,,,,,,,,,,,,z,1,0.866722836802,,,2016_Sep_06_0925,60.0134507409,stroop short,002,ChiK13,
BLUE,0,GREEN,m,,,,,0,25,25,12,,,,,,,,,,,,m,1,0.833253161225,,,2016_Sep_06_0925,60.0134507409,stroop short,002,ChiK13,
GREEN,0,BLUE,n,,,,,0,26,26,34,,,,,,,,,,,,n,1,0.666538435436,,,2016_Sep_06_0925,60.0134507409,stroop short,002,ChiK13,
RED,1,RED,z,,,,,0,27,27,29,,,,,,,,,,,,z,1,0.649947278425,,,2016_Sep_06_0925,60.0134507409,stroop short,002,ChiK13,
YELLOW,0,RED,x,,,,,0,28,28,23,,,,,,,,,,,,x,1,0.816611351775,,,2016_Sep_06_0925,60.0134507409,stroop short,002,ChiK13,
BLUE,1,BLUE,z,,,,,0,29,29,2,,,,,,,,,,,,m,0,0.949937843166,,,2016_Sep_06_0925,60.0134507409,stroop short,002,ChiK13,
GREEN,1,GREEN,n,,,,,0,30,30,35,,,,,,,,,,,,n,1,0.683275259594,,,2016_Sep_06_0925,60.0134507409,stroop short,002,ChiK13,
RED,1,RED,z,,,,,0,31,31,5,,,,,,,,,,,,z,1,0.966489603835,,,2016_Sep_06_0925,60.0134507409,stroop short,002,ChiK13,
RED,1,RED,z,,,,,0,32,32,18,,,,,,,,,,,,z,1,1.38307745023,,,2016_Sep_06_0925,60.0134507409,stroop short,002,ChiK13,
YELLOW,1,YELLOW,x,,,,,0,33,33,16,,,,,,,,,,,,x,1,0.849821806041,,,2016_Sep_06_0925,60.0134507409,stroop short,002,ChiK13,
BLUE,1,BLUE,m,,,,,0,34,34,20,,,,,,,,,,,,m,1,0.683365970499,,,2016_Sep_06_0925,60.0134507409,stroop short,002,ChiK13,
GREEN,1,GREEN,n,,,,,0,35,35,6,,,,,,,,,,,,n,1,0.816696434631,,,2016_Sep_06_0925,60.0134507409,stroop short,002,ChiK13,
BLUE,1,BLUE,m,,,,,0,36,36,14,,,,,,,,,,,,m,1,0.933246043399,,,2016_Sep_06_0925,60.0134507409,stroop short,002,ChiK13,
YELLOW,1,YELLOW,x,,,,,0,37,37,38,,,,,,,,,,,,x,1,0.833195887551,,,2016_Sep_06_0925,60.0134507409,stroop short,002,ChiK13,
YELLOW,1,YELLOW,x,,,,,0,38,38,10,,,,,,,,,,,,x,1,0.516891926564,,,2016_Sep_06_0925,60.0134507409,stroop short,002,ChiK13,
RED,1,RED,z,,,,,0,39,39,11,,,,,,,,,,,,z,1,0.633260444583,,,2016_Sep_06_0925,60.0134507409,stroop short,002,ChiK13,
,,,,,,,,,,,,,,,,,,,,,,None,,,,,,2016_Sep_06_0925,60.0134507409,stroop short,002,ChiK13,
BLUE,0,GREEN,m,,,,,,,,,0,0,0,20,,,,,,,,m,1,1.40021055524,,,2016_Sep_06_0925,60.0134507409,stroop short,002,ChiK13,
YELLOW,0,GREEN,x,,,,,,,,,0,1,1,16,,,,,,,,x,1,0.616662004215,,,2016_Sep_06_0925,60.0134507409,stroop short,002,ChiK13,
RED,0,BLUE,z,,,,,,,,,0,2,2,39,,,,,,,,z,1,0.983077119167,,,2016_Sep_06_0925,60.0134507409,stroop short,002,ChiK13,
GREEN,0,RED,n,,,,,,,,,0,3,3,13,,,,,,,,n,1,0.916638002241,,,2016_Sep_06_0925,60.0134507409,stroop short,002,ChiK13,
YELLOW,0,GREEN,x,,,,,,,,,0,4,4,38,,,,,,,,x,1,1.24972679133,,,2016_Sep_06_0925,60.0134507409,stroop short,002,ChiK13,
RED,0,YELLOW,z,,,,,,,,,0,5,5,0,,,,,,,,z,1,0.783291647148,,,2016_Sep_06_0925,60.0134507409,stroop short,002,ChiK13,
GREEN,0,BLUE,n,,,,,,,,,0,6,6,8,,,,,,,,n,1,0.949834220855,,,2016_Sep_06_0925,60.0134507409,stroop short,002,ChiK13,
RED,0,BLUE,z,,,,,,,,,0,7,7,24,,,,,,,,z,1,0.766657121054,,,2016_Sep_06_0925,60.0134507409,stroop short,002,ChiK13,
BLUE,0,GREEN,m,,,,,,,,,0,8,8,26,,,,,,,,m,1,0.983186038466,,,2016_Sep_06_0925,60.0134507409,stroop short,002,ChiK13,
BLUE,1,BLUE,m,,,,,,,,,0,9,9,12,,,,,,,,m,1,0.916577086889,,,2016_Sep_06_0925,60.0134507409,stroop short,002,ChiK13,
GREEN,0,BLUE,n,,,,,,,,,0,10,10,22,,,,,,,,m,0,0.766828942076,,,2016_Sep_06_0925,60.0134507409,stroop short,002,ChiK13,
GREEN,0,YELLOW,n,,,,,,,,,0,11,11,28,,,,,,,,n,1,0.666703304161,,,2016_Sep_06_0925,60.0134507409,stroop short,002,ChiK13,
YELLOW,1,YELLOW,x,,,,,,,,,0,12,12,23,,,,,,,,x,1,0.733211612982,,,2016_Sep_06_0925,60.0134507409,stroop short,002,ChiK13,
YELLOW,0,BLUE,x,,,,,,,,,0,13,13,10,,,,,,,,x,1,0.566708104556,,,2016_Sep_06_0925,60.0134507409,stroop short,002,ChiK13,
GREEN,0,RED,n,,,,,,,,,0,14,14,4,,,,,,,,n,1,0.716610855182,,,2016_Sep_06_0925,60.0134507409,stroop short,002,ChiK13,
BLUE,0,RED,m,,,,,,,,,0,15,15,14,,,,,,,,m,1,0.849646674402,,,2016_Sep_06_0925,60.0134507409,stroop short,002,ChiK13,
RED,0,YELLOW,z,,,,,,,,,0,16,16,29,,,,,,,,z,1,0.866671522238,,,2016_Sep_06_0925,60.0134507409,stroop short,002,ChiK13,
BLUE,0,GREEN,z,,,,,,,,,0,17,17,2,,,,,,,,m,0,0.683224938216,,,2016_Sep_06_0925,60.0134507409,stroop short,002,ChiK13,
BLUE,0,YELLOW,m,,,,,,,,,0,18,18,37,,,,,,,,m,1,0.56666804609,,,2016_Sep_06_0925,60.0134507409,stroop short,002,ChiK13,
YELLOW,0,RED,z,,,,,,,,,0,19,19,3,,,,,,,,x,0,0.766595212517,,,2016_Sep_06_0925,60.0134507409,stroop short,002,ChiK13,
RED,0,YELLOW,z,,,,,,,,,0,20,20,17,,,,,,,,z,1,1.13330066858,,,2016_Sep_06_0925,60.0134507409,stroop short,002,ChiK13,
RED,1,RED,z,,,,,,,,,0,21,21,1,,,,,,,,z,1,0.733179499997,,,2016_Sep_06_0925,60.0134507409,stroop short,002,ChiK13,
YELLOW,0,GREEN,x,,,,,,,,,0,22,22,30,,,,,,,,x,1,0.699962424497,,,2016_Sep_06_0925,60.0134507409,stroop short,002,ChiK13,
BLUE,0,GREEN,m,,,,,,,,,0,23,23,15,,,,,,,,m,1,1.26644640028,,,2016_Sep_06_0925,60.0134507409,stroop short,002,ChiK13,
YELLOW,0,GREEN,x,,,,,,,,,0,24,24,33,,,,,,,,x,1,0.49997467378,,,2016_Sep_06_0925,60.0134507409,stroop short,002,ChiK13,
RED,0,RED,z,,,,,,,,,0,25,25,11,,,,,,,,z,1,0.683204743452,,,2016_Sep_06_0925,60.0134507409,stroop short,002,ChiK13,
YELLOW,0,BLUE,x,,,,,,,,,0,26,26,7,,,,,,,,x,1,0.616737486282,,,2016_Sep_06_0925,60.0134507409,stroop short,002,ChiK13,
GREEN,0,RED,n,,,,,,,,,0,27,27,35,,,,,,,,n,1,0.600009931851,,,2016_Sep_06_0925,60.0134507409,stroop short,002,ChiK13,
GREEN,1,GREEN,n,,,,,,,,,0,28,28,34,,,,,,,,n,1,0.550022594961,,,2016_Sep_06_0925,60.0134507409,stroop short,002,ChiK13,
BLUE,0,GREEN,m,,,,,,,,,0,29,29,36,,,,,,,,m,1,0.949933870426,,,2016_Sep_06_0925,60.0134507409,stroop short,002,ChiK13,
YELLOW,0,GREEN,x,,,,,,,,,0,30,30,27,,,,,,,,x,1,1.01656930694,,,2016_Sep_06_0925,60.0134507409,stroop short,002,ChiK13,
GREEN,0,RED,n,,,,,,,,,0,31,31,25,,,,,,,,m,0,1.76633234953,,,2016_Sep_06_0925,60.0134507409,stroop short,002,ChiK13,
GREEN,0,RED,m,,,,,,,,,0,32,32,19,,,,,,,,n,0,0.649968466374,,,2016_Sep_06_0925,60.0134507409,stroop short,002,ChiK13,
RED,0,YELLOW,z,,,,,,,,,0,33,33,21,,,,,,,,z,1,0.89990250233,,,2016_Sep_06_0925,60.0134507409,stroop short,002,ChiK13,
GREEN,0,YELLOW,n,,,,,,,,,0,34,34,6,,,,,,,,z,0,0.916394340831,,,2016_Sep_06_0925,60.0134507409,stroop short,002,ChiK13,
RED,0,GREEN,z,,,,,,,,,0,35,35,9,,,,,,,,x,0,1.53302919799,,,2016_Sep_06_0925,60.0134507409,stroop short,002,ChiK13,
RED,0,BLUE,z,,,,,,,,,0,36,36,5,,,,,,,,z,1,0.866525524029,,,2016_Sep_06_0925,60.0134507409,stroop short,002,ChiK13,
BLUE,0,RED,m,,,,,,,,,0,37,37,32,,,,,,,,m,1,0.900045520983,,,2016_Sep_06_0925,60.0134507409,stroop short,002,ChiK13,
BLUE,0,YELLOW,m,,,,,,,,,0,38,38,31,,,,,,,,m,1,0.799801362981,,,2016_Sep_06_0925,60.0134507409,stroop short,002,ChiK13,
RED,0,BLUE,z,,,,,,,,,0,39,39,18,,,,,,,,z,1,0.850016139258,,,2016_Sep_06_0925,60.0134507409,stroop short,002,ChiK13,
,,,,,,,,,,,,,,,,,,,,,,None,,,,,,2016_Sep_06_0925,60.0134507409,stroop short,002,ChiK13,
,,,,,,,,,,,,,,,,,,,,,,,,,,space,4.79887041749,2016_Sep_06_0925,60.0134507409,stroop short,002,ChiK13,
